thisRow.t,notes,trial_index,filename,source,gender,emotion,resp_key,rt,correct,missing_file,participant,session,
,,1,real_man5_smiling.JPG,non-ai,male,happy,right,0.8350890000001527,True,False,alon,001,
,,2,ai_happy_man_07.jpg,ai,male,happy,right,0.6638040840043686,True,False,alon,001,
,,3,real_man9_smiling.JPG,non-ai,male,happy,right,0.9325505000015255,True,False,alon,001,
,,4,ai_happy_man_03.jpg,ai,male,happy,right,0.5679938749817666,True,False,alon,001,
,,5,real_woman3_smiling.JPG,non-ai,female,happy,right,1.2502078749821521,True,False,alon,001,
,,6,real_man1_smiling.JPG,non-ai,male,happy,right,0.7532322920160368,True,False,alon,001,
,,7,real_man7_smiling.JPG,non-ai,male,happy,left,1.3617043750127777,False,False,alon,001,
,,8,real_woman13_sad.JPG,non-ai,female,sad,left,0.6807693330047186,True,False,alon,001,
,,9,AI_sad_man_10.jpg,ai,male,sad,left,0.598291166999843,True,False,alon,001,
,,10,AI_sad_woman_04.jpg,ai,female,sad,left,0.4854305840271991,True,False,alon,001,
,,11,AI_sad_man_05.jpg,ai,male,sad,left,0.8650236249959562,True,False,alon,001,
,,12,real_woman1_smiling.JPG,non-ai,female,happy,right,0.7637062089925166,True,False,alon,001,
,,13,real_man20_sad.JPG,non-ai,male,sad,left,0.9348661249969155,True,False,alon,001,
,,14,real_man12_sad.JPG,non-ai,male,sad,left,1.4581446670053992,True,False,alon,001,
,,15,real_man13_sad.JPG,non-ai,male,sad,left,0.6924746249860618,True,False,alon,001,
,,16,real_man15_sad.JPG,non-ai,male,sad,left,0.60113083399483,True,False,alon,001,
,,17,AI_sad_man_09.jpg,ai,male,sad,left,0.6564381250063889,True,False,alon,001,
,,18,AI_sad_man_07.jpg,ai,male,sad,left,0.7021142919838894,True,False,alon,001,
,,19,AI_sad_woman_07.jpg,ai,female,sad,left,0.5459949159994721,True,False,alon,001,
,,20,AI_happy_woman_05.jpg,ai,female,happy,right,0.8402264589967672,True,False,alon,001,
,,21,AI_sad_man_01.jpg,ai,male,sad,left,1.264985624991823,True,False,alon,001,
,,22,real_woman15_sad.JPG,non-ai,female,sad,left,1.1013617500138935,True,False,alon,001,
,,23,real_woman14_sad.JPG,non-ai,female,sad,left,0.6894597499922384,True,False,alon,001,
,,24,AI_sad_man_02.jpg,ai,male,sad,left,0.7024223339976743,True,False,alon,001,
,,25,AI_happy_woman_09.jpg,ai,female,happy,right,0.6496139999944717,True,False,alon,001,
,,26,AI_happy_woman_02.jpg,ai,female,happy,right,0.7463023750169668,True,False,alon,001,
,,27,real_woman12_sad.JPG,non-ai,female,sad,left,0.7547130830062088,True,False,alon,001,
,,28,ai_happy_man_01.jpg,ai,male,happy,right,1.0211983750050422,True,False,alon,001,
,,29,ai_happy_man_02.jpg,ai,male,happy,right,0.9191698329814244,True,False,alon,001,
,,30,real_woman2_smiling.JPG,non-ai,female,happy,right,0.5354902080143802,True,False,alon,001,
,,31,AI_happy_woman_01.jpg,ai,female,happy,right,0.442065042007016,True,False,alon,001,
,,32,real_woman18_sad.JPG,non-ai,female,sad,right,0.43345229199621826,False,False,alon,001,
,,33,real_man18_sad.JPG,non-ai,male,sad,left,0.5761861249920912,True,False,alon,001,
,,34,AI_sad_woman_08.jpg,ai,female,sad,left,0.5324466669990215,True,False,alon,001,
,,35,real_woman10_smiling.JPG,non-ai,female,happy,right,0.6258139999990817,True,False,alon,001,
,,36,real_man2_smiling.JPG,non-ai,male,happy,right,0.707307500008028,True,False,alon,001,
,,37,ai_happy_man_04.jpg,ai,male,happy,right,0.7969262919796165,True,False,alon,001,
,,38,AI_sad_woman_09.jpg,ai,female,sad,left,0.5267983340017963,True,False,alon,001,
,,39,real_woman5_smiling.JPG,non-ai,female,happy,right,0.6461649590055458,True,False,alon,001,
,,40,real_man8_smiling.JPG,non-ai,male,happy,right,0.7735801249800716,True,False,alon,001,
,,41,real_man14_sad.JPG,non-ai,male,sad,left,0.6849183329904918,True,False,alon,001,
,,42,AI_sad_woman_03.jpg,ai,female,sad,left,0.5430192500061821,True,False,alon,001,
,,43,AI_happy_woman_06.jpg,ai,female,happy,right,0.602390457992442,True,False,alon,001,
,,44,AI_sad_man_08.jpg,ai,male,sad,left,0.72404450000613,True,False,alon,001,
,,45,real_man19_sad.JPG,non-ai,male,sad,left,0.5821289579907898,True,False,alon,001,
,,46,ai_happy_man_06.jpg,ai,male,happy,right,0.5342487919842824,True,False,alon,001,
,,47,AI_happy_woman_08.jpg,ai,female,happy,right,0.8233160410018172,True,False,alon,001,
,,48,AI_sad_woman_01.jpg,ai,female,sad,left,0.5658301669755019,True,False,alon,001,
,,49,AI_sad_man_03.jpg,ai,male,sad,left,0.8144522499933373,True,False,alon,001,
,,50,real_man10_smiling.JPG,non-ai,male,happy,right,0.5478271660103928,True,False,alon,001,
,,51,real_man11_sad.JPG,non-ai,male,sad,left,0.743163083010586,True,False,alon,001,
,,52,real_woman19_sad.JPG,non-ai,female,sad,left,0.7104605839995202,True,False,alon,001,
,,53,real_woman8_smiling.JPG,non-ai,female,happy,right,0.6721617500006687,True,False,alon,001,
,,54,AI_sad_woman_02.jpg,ai,female,sad,left,0.7735986670013517,True,False,alon,001,
,,55,real_man16_sad.JPG,non-ai,male,sad,left,0.624013083986938,True,False,alon,001,
,,56,real_man6_smiling.JPG,non-ai,male,happy,right,0.8027150830021128,True,False,alon,001,
,,57,real_woman7_smiling.JPG,non-ai,female,happy,right,0.6621908750094008,True,False,alon,001,
,,58,real_woman17_sad.JPG,non-ai,female,sad,left,0.6490668329934124,True,False,alon,001,
,,59,ai_happy_man_09.jpg,ai,male,happy,,,False,False,alon,001,
,,60,real_woman16_sad.JPG,non-ai,female,sad,left,0.9876938750094268,True,False,alon,001,
,,61,AI_sad_man_04.jpg,ai,male,sad,left,0.6999014999892097,True,False,alon,001,
,,62,ai_happy_man_08.jpg,ai,male,happy,right,0.6476034170191269,True,False,alon,001,
,,63,real_woman20_sad.JPG,non-ai,female,sad,left,0.6390222919872031,True,False,alon,001,
,,64,real_man4_smiling.JPG,non-ai,male,happy,right,0.5411731250060257,True,False,alon,001,
,,65,AI_happy_woman_03.jpg,ai,female,happy,,,False,False,alon,001,
,,66,AI_happy_woman_07.jpg,ai,female,happy,right,0.5640243329980876,True,False,alon,001,
,,67,AI_sad_woman_06.jpg,ai,female,sad,left,0.5166267500026152,True,False,alon,001,
,,68,real_man17_sad.JPG,non-ai,male,sad,left,1.024307209008839,True,False,alon,001,
,,69,AI_happy_woman_10.jpg,ai,female,happy,right,0.6451696250005625,True,False,alon,001,
,,70,AI_sad_woman_05.jpg,ai,female,sad,left,0.7969548749970272,True,False,alon,001,
,,71,AI_happy_woman_04.jpg,ai,female,happy,left,1.4488567079824861,False,False,alon,001,
,,72,real_woman9_smiling.JPG,non-ai,female,happy,,,False,False,alon,001,
,,73,real_woman11_sad.JPG,non-ai,female,sad,left,1.0512652500183322,True,False,alon,001,
,,74,real_woman6_smiling.JPG,non-ai,female,happy,right,0.9388427089725155,True,False,alon,001,
,,75,AI_sad_man_06.jpg,ai,male,sad,left,0.9165755420108326,True,False,alon,001,
,,76,ai_happy_man_05.jpg,ai,male,happy,right,1.1321677500091027,True,False,alon,001,
,,77,ai_happy_man_10.jpg,ai,male,happy,,,False,False,alon,001,
,,78,real_woman4_smiling.JPG,non-ai,female,happy,right,0.9457359580264892,True,False,alon,001,
,,79,real_man3_smiling.JPG,non-ai,male,happy,right,0.6651553339906968,True,False,alon,001,
