thisRow.t,notes,trial_index,filename,source,gender,emotion,resp_key,rt,correct,missing_file,participant,session,
,,1,ai_happy_man_08.jpg,ai,male,happy,right,0.8053085419815034,True,False,tamar,001,
,,2,real_man4_smiling.JPG,non-ai,male,happy,right,0.5339415000053123,True,False,tamar,001,
,,3,real_man17_sad.JPG,non-ai,male,sad,left,0.612825000018347,True,False,tamar,001,
,,4,real_woman19_sad.JPG,non-ai,female,sad,left,0.5178771660139319,True,False,tamar,001,
,,5,real_man8_smiling.JPG,non-ai,male,happy,right,0.5361721669905819,True,False,tamar,001,
,,6,real_man3_smiling.JPG,non-ai,male,happy,right,0.4780787499912549,True,False,tamar,001,
,,7,AI_sad_man_04.jpg,ai,male,sad,left,0.5697703750047367,True,False,tamar,001,
,,8,real_woman17_sad.JPG,non-ai,female,sad,left,0.643725625006482,True,False,tamar,001,
,,9,ai_happy_man_04.jpg,ai,male,happy,right,0.5239099580212496,True,False,tamar,001,
,,10,real_woman8_smiling.JPG,non-ai,female,happy,right,0.5655411669868045,True,False,tamar,001,
,,11,real_man14_sad.JPG,non-ai,male,sad,left,0.48712591698858887,True,False,tamar,001,
,,12,AI_sad_woman_01.jpg,ai,female,sad,left,0.6335192919941619,True,False,tamar,001,
,,13,real_man5_smiling.JPG,non-ai,male,happy,right,0.5703777080052532,True,False,tamar,001,
,,14,AI_happy_woman_09.jpg,ai,female,happy,right,0.5557035420206375,True,False,tamar,001,
,,15,AI_sad_woman_06.jpg,ai,female,sad,left,0.4937229579954874,True,False,tamar,001,
,,16,real_woman16_sad.JPG,non-ai,female,sad,left,0.8941833330027293,True,False,tamar,001,
,,17,real_woman14_sad.JPG,non-ai,female,sad,left,0.669419415993616,True,False,tamar,001,
,,18,real_woman1_smiling.JPG,non-ai,female,happy,right,0.564962167001795,True,False,tamar,001,
,,19,ai_happy_man_02.jpg,ai,male,happy,right,0.7825275840004906,True,False,tamar,001,
,,20,AI_sad_woman_08.jpg,ai,female,sad,left,0.7619402919954155,True,False,tamar,001,
,,21,AI_sad_man_10.jpg,ai,male,sad,left,0.5455820419883821,True,False,tamar,001,
,,22,AI_sad_man_05.jpg,ai,male,sad,left,0.7235296659928281,True,False,tamar,001,
,,23,real_woman6_smiling.JPG,non-ai,female,happy,right,0.5329028749838471,True,False,tamar,001,
,,24,real_man7_smiling.JPG,non-ai,male,happy,right,0.5607257499941625,True,False,tamar,001,
,,25,real_woman18_sad.JPG,non-ai,female,sad,left,0.5393594159977511,True,False,tamar,001,
,,26,AI_sad_man_06.jpg,ai,male,sad,left,0.6025834580068476,True,False,tamar,001,
,,27,AI_happy_woman_03.jpg,ai,female,happy,right,0.7306282079953235,True,False,tamar,001,
,,28,AI_sad_man_02.jpg,ai,male,sad,left,0.749647124990588,True,False,tamar,001,
,,29,AI_sad_man_03.jpg,ai,male,sad,left,0.7305256669933442,True,False,tamar,001,
,,30,real_man20_sad.JPG,non-ai,male,sad,left,0.4509772079763934,True,False,tamar,001,
,,31,real_woman13_sad.JPG,non-ai,female,sad,left,0.3731322500098031,True,False,tamar,001,
,,32,AI_happy_woman_08.jpg,ai,female,happy,right,0.4146889579715207,True,False,tamar,001,
,,33,real_woman10_smiling.JPG,non-ai,female,happy,right,0.857431959011592,True,False,tamar,001,
,,34,ai_happy_man_07.jpg,ai,male,happy,right,0.8155017079843674,True,False,tamar,001,
,,35,AI_sad_woman_03.jpg,ai,female,sad,left,0.9642461659968831,True,False,tamar,001,
,,36,AI_happy_woman_02.jpg,ai,female,happy,right,0.6696279590250924,True,False,tamar,001,
,,37,AI_sad_woman_07.jpg,ai,female,sad,left,0.793130125006428,True,False,tamar,001,
,,38,real_man10_smiling.JPG,non-ai,male,happy,right,0.9434390839887783,True,False,tamar,001,
,,39,real_man15_sad.JPG,non-ai,male,sad,left,0.8796789170010015,True,False,tamar,001,
,,40,AI_sad_woman_04.jpg,ai,female,sad,left,0.5955407909932546,True,False,tamar,001,
,,41,AI_sad_man_07.jpg,ai,male,sad,left,0.5613004170008935,True,False,tamar,001,
,,42,real_woman7_smiling.JPG,non-ai,female,happy,right,0.5847720419988036,True,False,tamar,001,
,,43,ai_happy_man_10.jpg,ai,male,happy,,,False,False,tamar,001,
,,44,AI_happy_woman_01.jpg,ai,female,happy,right,0.6519471250066999,True,False,tamar,001,
,,45,AI_sad_woman_10.jpg,ai,female,sad,left,0.8073059160087723,True,False,tamar,001,
,,46,real_woman3_smiling.JPG,non-ai,female,happy,right,0.6035856250091456,True,False,tamar,001,
,,47,AI_sad_woman_02.jpg,ai,female,sad,left,1.2304207499837503,True,False,tamar,001,
,,48,real_man11_sad.JPG,non-ai,male,sad,left,0.6770814589981455,True,False,tamar,001,
,,49,real_woman15_sad.JPG,non-ai,female,sad,left,0.5989844159921631,True,False,tamar,001,
,,50,AI_happy_woman_05.jpg,ai,female,happy,right,0.4967624999990221,True,False,tamar,001,
,,51,real_man18_sad.JPG,non-ai,male,sad,left,0.481046165979933,True,False,tamar,001,
,,52,real_man13_sad.JPG,non-ai,male,sad,left,0.4295218329934869,True,False,tamar,001,
,,53,AI_sad_woman_05.jpg,ai,female,sad,left,0.440827917016577,True,False,tamar,001,
,,54,real_man9_smiling.JPG,non-ai,male,happy,right,0.4373474160092883,True,False,tamar,001,
,,55,real_man6_smiling.JPG,non-ai,male,happy,right,0.48614308299147524,True,False,tamar,001,
,,56,ai_happy_man_01.jpg,ai,male,happy,right,0.6115594590082765,True,False,tamar,001,
,,57,real_man1_smiling.JPG,non-ai,male,happy,right,0.4638208329852205,True,False,tamar,001,
,,58,real_woman5_smiling.JPG,non-ai,female,happy,right,0.6596388749894686,True,False,tamar,001,
,,59,ai_happy_man_06.jpg,ai,male,happy,right,0.49379820897593163,True,False,tamar,001,
,,60,AI_happy_woman_06.jpg,ai,female,happy,right,0.47926679099327885,True,False,tamar,001,
,,61,real_woman2_smiling.JPG,non-ai,female,happy,right,0.3859389999997802,True,False,tamar,001,
,,62,real_woman20_sad.JPG,non-ai,female,sad,left,0.5785212090122513,True,False,tamar,001,
,,63,ai_happy_man_05.jpg,ai,male,happy,right,0.6504720840021037,True,False,tamar,001,
,,64,AI_happy_woman_07.jpg,ai,female,happy,right,0.43922529101837426,True,False,tamar,001,
,,65,real_woman12_sad.JPG,non-ai,female,sad,left,0.42126312499749474,True,False,tamar,001,
,,66,real_woman11_sad.JPG,non-ai,female,sad,left,0.579678292007884,True,False,tamar,001,
,,67,ai_happy_man_09.jpg,ai,male,happy,right,0.5675098339852411,True,False,tamar,001,
,,68,AI_happy_woman_04.jpg,ai,female,happy,right,0.5113211669959128,True,False,tamar,001,
,,69,real_woman4_smiling.JPG,non-ai,female,happy,right,0.4569824170030188,True,False,tamar,001,
,,70,real_man19_sad.JPG,non-ai,male,sad,left,0.40178575000027195,True,False,tamar,001,
,,71,real_man12_sad.JPG,non-ai,male,sad,left,0.48483087500790134,True,False,tamar,001,
,,72,AI_happy_woman_10.jpg,ai,female,happy,right,0.42670983300195076,True,False,tamar,001,
,,73,real_woman9_smiling.JPG,non-ai,female,happy,right,0.4466745000099763,True,False,tamar,001,
,,74,AI_sad_woman_09.jpg,ai,female,sad,left,0.426067124994006,True,False,tamar,001,
,,75,AI_sad_man_01.jpg,ai,male,sad,left,0.4253297079994809,True,False,tamar,001,
,,76,real_man16_sad.JPG,non-ai,male,sad,left,0.3991536670073401,True,False,tamar,001,
,,77,AI_sad_man_09.jpg,ai,male,sad,left,0.37602654201327823,True,False,tamar,001,
,,78,AI_sad_man_08.jpg,ai,male,sad,left,0.3698913749831263,True,False,tamar,001,
,,79,ai_happy_man_03.jpg,ai,male,happy,right,0.40152212500106543,True,False,tamar,001,
,,80,real_man2_smiling.JPG,non-ai,male,happy,right,0.36237329099094495,True,False,tamar,001,
