thisRow.t,notes,trial_index,filename,source,gender,emotion,resp_key,rt,correct,missing_file,participant,session,
,,1,AI_sad_woman_08.jpg,ai,female,sad,left,0.5766835420217831,True,False,tia,001,
,,2,ai_happy_man_03.jpg,ai,male,happy,right,0.4922071250039153,True,False,tia,001,
,,3,AI_sad_woman_04.jpg,ai,female,sad,left,0.5116515420086216,True,False,tia,001,
,,4,AI_sad_man_01.jpg,ai,male,sad,left,0.4893557920004241,True,False,tia,001,
,,5,ai_happy_man_04.jpg,ai,male,happy,right,0.4736530420195777,True,False,tia,001,
,,6,AI_sad_man_05.jpg,ai,male,sad,left,0.48426116700284183,True,False,tia,001,
,,7,real_man5_smiling.JPG,non-ai,male,happy,right,0.5493516669957899,True,False,tia,001,
,,8,AI_happy_woman_06.jpg,ai,female,happy,right,0.5249328750069253,True,False,tia,001,
,,9,real_woman11_sad.JPG,non-ai,female,sad,left,0.5367847080051433,True,False,tia,001,
,,10,real_man14_sad.JPG,non-ai,male,sad,left,0.5220823750132695,True,False,tia,001,
,,11,AI_sad_man_04.jpg,ai,male,sad,left,0.49154683301458135,True,False,tia,001,
,,12,real_man9_smiling.JPG,non-ai,male,happy,right,0.5873653329908848,True,False,tia,001,
,,13,real_woman6_smiling.JPG,non-ai,female,happy,right,0.6619074580084998,True,False,tia,001,
,,14,real_man8_smiling.JPG,non-ai,male,happy,right,0.7381020840257406,True,False,tia,001,
,,15,AI_sad_man_03.jpg,ai,male,sad,left,0.6472129159956239,True,False,tia,001,
,,16,real_woman7_smiling.JPG,non-ai,female,happy,right,1.0199543750204612,True,False,tia,001,
,,17,AI_happy_woman_10.jpg,ai,female,happy,right,0.5576673329924233,True,False,tia,001,
,,18,real_man16_sad.JPG,non-ai,male,sad,left,0.6451435830094852,True,False,tia,001,
,,19,AI_happy_woman_08.jpg,ai,female,happy,right,0.5967372919840273,True,False,tia,001,
,,20,AI_sad_woman_09.jpg,ai,female,sad,left,0.7390222090180032,True,False,tia,001,
,,21,AI_sad_woman_06.jpg,ai,female,sad,left,0.511557082994841,True,False,tia,001,
,,22,real_woman14_sad.JPG,non-ai,female,sad,left,0.5154744579922408,True,False,tia,001,
,,23,AI_sad_man_06.jpg,ai,male,sad,left,0.4963946249918081,True,False,tia,001,
,,24,AI_sad_man_02.jpg,ai,male,sad,left,0.4498300410050433,True,False,tia,001,
,,25,real_man18_sad.JPG,non-ai,male,sad,left,0.6642752909974661,True,False,tia,001,
,,26,real_woman9_smiling.JPG,non-ai,female,happy,right,0.42267666599946097,True,False,tia,001,
,,27,ai_happy_man_08.jpg,ai,male,happy,right,0.4627425420039799,True,False,tia,001,
,,28,real_man17_sad.JPG,non-ai,male,sad,left,0.4943099580123089,True,False,tia,001,
,,29,real_woman12_sad.JPG,non-ai,female,sad,left,0.4452511250274256,True,False,tia,001,
,,30,real_woman8_smiling.JPG,non-ai,female,happy,right,0.5363160829874687,True,False,tia,001,
,,31,AI_sad_man_07.jpg,ai,male,sad,left,0.7201249999925494,True,False,tia,001,
,,32,AI_sad_woman_01.jpg,ai,female,sad,left,0.41099424997810274,True,False,tia,001,
,,33,AI_sad_man_08.jpg,ai,male,sad,left,0.46947554202051833,True,False,tia,001,
,,34,AI_happy_woman_01.jpg,ai,female,happy,right,0.5572748749982566,True,False,tia,001,
,,35,AI_happy_woman_05.jpg,ai,female,happy,right,0.43815412500407547,True,False,tia,001,
,,36,real_man11_sad.JPG,non-ai,male,sad,left,0.5029460829973686,True,False,tia,001,
,,37,ai_happy_man_09.jpg,ai,male,happy,right,0.621233999991091,True,False,tia,001,
,,38,AI_sad_woman_05.jpg,ai,female,sad,left,0.48120145898428746,True,False,tia,001,
,,39,AI_happy_woman_02.jpg,ai,female,happy,right,0.5072779999754857,True,False,tia,001,
,,40,AI_happy_woman_03.jpg,ai,female,happy,right,0.4430927080102265,True,False,tia,001,
,,41,real_woman13_sad.JPG,non-ai,female,sad,left,0.4791825420106761,True,False,tia,001,
,,42,real_woman2_smiling.JPG,non-ai,female,happy,right,0.49840712497825734,True,False,tia,001,
,,43,real_man1_smiling.JPG,non-ai,male,happy,right,0.7753036250069272,True,False,tia,001,
,,44,AI_sad_woman_07.jpg,ai,female,sad,left,0.7538388750108425,True,False,tia,001,
,,45,real_man2_smiling.JPG,non-ai,male,happy,right,0.6158313339983579,True,False,tia,001,
,,46,real_man15_sad.JPG,non-ai,male,sad,left,0.7740197079838254,True,False,tia,001,
,,47,real_woman20_sad.JPG,non-ai,female,sad,left,0.5494979580107611,True,False,tia,001,
,,48,AI_happy_woman_04.jpg,ai,female,happy,right,0.4742324580147397,True,False,tia,001,
,,49,real_woman10_smiling.JPG,non-ai,female,happy,right,0.5878582920122426,True,False,tia,001,
,,50,real_man7_smiling.JPG,non-ai,male,happy,right,0.6324665419815574,True,False,tia,001,
,,51,AI_happy_woman_07.jpg,ai,female,happy,right,0.5474877920059953,True,False,tia,001,
,,52,real_man10_smiling.JPG,non-ai,male,happy,right,0.4738092919869814,True,False,tia,001,
,,53,AI_sad_man_09.jpg,ai,male,sad,left,0.5439556250057649,True,False,tia,001,
,,54,real_woman4_smiling.JPG,non-ai,female,happy,right,0.5360849160060752,True,False,tia,001,
,,55,real_woman5_smiling.JPG,non-ai,female,happy,right,0.5296474169881549,True,False,tia,001,
,,56,ai_happy_man_05.jpg,ai,male,happy,right,0.6614742500241846,True,False,tia,001,
,,57,real_woman19_sad.JPG,non-ai,female,sad,left,0.8764529170002788,True,False,tia,001,
,,58,real_woman1_smiling.JPG,non-ai,female,happy,right,0.5258477500174195,True,False,tia,001,
,,59,real_woman3_smiling.JPG,non-ai,female,happy,right,0.4943247920018621,True,False,tia,001,
,,60,ai_happy_man_06.jpg,ai,male,happy,right,0.47791433401289396,True,False,tia,001,
,,61,real_man13_sad.JPG,non-ai,male,sad,left,0.5442640830005985,True,False,tia,001,
,,62,real_man19_sad.JPG,non-ai,male,sad,left,0.6016253749839962,True,False,tia,001,
,,63,AI_happy_woman_09.jpg,ai,female,happy,left,0.8080682909931056,False,False,tia,001,
,,64,real_man6_smiling.JPG,non-ai,male,happy,right,0.6137547089892905,True,False,tia,001,
,,65,real_woman18_sad.JPG,non-ai,female,sad,left,0.5378095000050962,True,False,tia,001,
,,66,real_woman15_sad.JPG,non-ai,female,sad,left,0.5985184169840068,True,False,tia,001,
,,67,AI_sad_man_10.jpg,ai,male,sad,left,0.5335177909873892,True,False,tia,001,
,,68,real_man20_sad.JPG,non-ai,male,sad,left,0.7260677919839509,True,False,tia,001,
,,69,real_woman17_sad.JPG,non-ai,female,sad,left,0.6439767080009915,True,False,tia,001,
,,70,real_man3_smiling.JPG,non-ai,male,happy,right,0.5319546660175547,True,False,tia,001,
,,71,ai_happy_man_07.jpg,ai,male,happy,right,0.5579021669982467,True,False,tia,001,
,,72,ai_happy_man_02.jpg,ai,male,happy,right,0.47967674999381416,True,False,tia,001,
,,73,ai_happy_man_01.jpg,ai,male,happy,right,0.5304228750173934,True,False,tia,001,
,,74,ai_happy_man_10.jpg,ai,male,happy,right,0.47105262501281686,True,False,tia,001,
,,75,real_man12_sad.JPG,non-ai,male,sad,left,0.5232224170176778,True,False,tia,001,
,,76,AI_sad_woman_02.jpg,ai,female,sad,left,0.9956332920119166,True,False,tia,001,
,,77,real_man4_smiling.JPG,non-ai,male,happy,right,1.0339631670212839,True,False,tia,001,
,,78,real_woman16_sad.JPG,non-ai,female,sad,left,0.8104510830016807,True,False,tia,001,
,,79,AI_sad_woman_03.jpg,ai,female,sad,left,0.5583074160094839,True,False,tia,001,
