trial_index,filename,source,gender,emotion,rt,correct
1,real_woman5_smiling.JPG,non-ai,female,happy,0.4737143749953247,True
2,real_man11_sad.JPG,non-ai,male,sad,0.4674220830202102,True
3,AI_sad_man_10.jpg,ai,male,sad,0.6201838340202812,True
4,ai_happy_man_05.jpg,ai,male,happy,0.6903150830185041,False
5,AI_sad_woman_09.jpg,ai,female,sad,0.6493810829997528,True
6,ai_happy_man_02.jpg,ai,male,happy,0.4607111669902224,True
7,AI_sad_woman_05.jpg,ai,female,sad,0.5654245829791762,False
8,AI_happy_woman_06.jpg,ai,female,happy,0.5690447079832666,True
9,real_man6_smiling.JPG,non-ai,male,happy,0.6129453750036191,True
10,AI_happy_woman_08.jpg,ai,female,happy,0.4908333749917801,True
11,AI_sad_man_03.jpg,ai,male,sad,0.4301183340139687,True
12,real_woman6_smiling.JPG,non-ai,female,happy,0.5284172500250861,True
13,AI_happy_woman_04.jpg,ai,female,happy,0.5128245840023737,True
14,ai_happy_man_03.jpg,ai,male,happy,0.5128619589959271,False
15,AI_happy_woman_10.jpg,ai,female,happy,0.6500024159904569,True
16,AI_sad_woman_08.jpg,ai,female,sad,0.6216161250195,True
17,real_man4_smiling.JPG,non-ai,male,happy,0.6894899159960914,True
18,real_man8_smiling.JPG,non-ai,male,happy,0.5049212919839192,True
19,real_man16_sad.JPG,non-ai,male,sad,0.5337016660196241,True
20,AI_sad_man_05.jpg,ai,male,sad,0.5651174160011578,True
21,AI_sad_woman_02.jpg,ai,female,sad,0.7782056250143796,True
22,real_woman15_sad.JPG,non-ai,female,sad,0.7419098340033088,True
23,ai_happy_man_01.jpg,ai,male,happy,0.6928767499921378,True
24,ai_happy_man_10.jpg,ai,male,happy,0.6514911249978468,True
25,AI_sad_woman_07.jpg,ai,female,sad,0.9004294580081478,True
27,real_woman13_sad.JPG,non-ai,female,sad,0.9547124580130912,True
28,real_woman14_sad.JPG,non-ai,female,sad,0.6832276250061113,True
29,AI_sad_woman_06.jpg,ai,female,sad,0.5593804999953136,True
30,real_man13_sad.JPG,non-ai,male,sad,0.5833245409885421,True
31,real_woman16_sad.JPG,non-ai,female,sad,0.8185247080109548,True
32,AI_happy_woman_09.jpg,ai,female,happy,0.6273715830175206,True
33,real_woman2_smiling.JPG,non-ai,female,happy,0.5007770000083838,True
34,real_woman20_sad.JPG,non-ai,female,sad,0.670023915998172,True
35,AI_sad_man_06.jpg,ai,male,sad,0.5696119590138551,True
36,real_man18_sad.JPG,non-ai,male,sad,0.5617038749915082,True
37,AI_happy_woman_02.jpg,ai,female,happy,0.6612992910086177,True
38,real_woman1_smiling.JPG,non-ai,female,happy,0.545727791992249,True
39,real_woman8_smiling.JPG,non-ai,female,happy,0.8077262919978239,True
40,AI_sad_man_01.jpg,ai,male,sad,0.7628059159906115,True
41,AI_sad_woman_01.jpg,ai,female,sad,0.709072958008619,True
42,real_man10_smiling.JPG,non-ai,male,happy,0.8422165839874651,True
43,real_man2_smiling.JPG,non-ai,male,happy,0.8268764170061331,True
44,AI_sad_man_08.jpg,ai,male,sad,0.9199515840155073,True
45,AI_sad_man_02.jpg,ai,male,sad,0.6355119580111932,True
46,real_woman19_sad.JPG,non-ai,female,sad,0.6374011250154581,True
47,AI_happy_woman_07.jpg,ai,female,happy,0.5560780839878134,True
48,real_man3_smiling.JPG,non-ai,male,happy,0.619095332978759,True
49,AI_sad_man_09.jpg,ai,male,sad,0.5719546250184067,True
50,AI_sad_woman_03.jpg,ai,female,sad,0.7244158329849597,True
51,real_man7_smiling.JPG,non-ai,male,happy,0.7978132920106873,True
52,ai_happy_man_07.jpg,ai,male,happy,0.4458371660148259,True
53,real_woman12_sad.JPG,non-ai,female,sad,0.8062741670000833,True
54,real_man12_sad.JPG,non-ai,male,sad,0.6984944590076338,True
55,real_man19_sad.JPG,non-ai,male,sad,0.5049409590137657,True
56,AI_happy_woman_05.jpg,ai,female,happy,0.5673730419948697,True
57,real_woman17_sad.JPG,non-ai,female,sad,0.877512792008929,True
58,real_woman10_smiling.JPG,non-ai,female,happy,0.6276349590043537,True
59,real_woman3_smiling.JPG,non-ai,female,happy,0.4850370420026593,True
60,ai_happy_man_08.jpg,ai,male,happy,0.5842395000217948,True
61,real_man14_sad.JPG,non-ai,male,sad,0.5450301250093617,True
62,ai_happy_man_06.jpg,ai,male,happy,0.9627523329982068,True
63,AI_sad_man_04.jpg,ai,male,sad,0.6432863750087563,True
64,AI_sad_woman_04.jpg,ai,female,sad,0.578998250013683,True
65,real_man17_sad.JPG,non-ai,male,sad,0.9663373340154068,True
66,real_man5_smiling.JPG,non-ai,male,happy,0.5844664169999305,True
67,real_man20_sad.JPG,non-ai,male,sad,0.7449297499842942,True
68,real_woman4_smiling.JPG,non-ai,female,happy,0.6023871249926742,True
69,real_woman18_sad.JPG,non-ai,female,sad,0.7564401660056319,True
70,real_man15_sad.JPG,non-ai,male,sad,0.573920333001297,True
71,AI_happy_woman_03.jpg,ai,female,happy,0.6264412080054171,True
72,real_man9_smiling.JPG,non-ai,male,happy,0.515233750018524,True
73,AI_happy_woman_01.jpg,ai,female,happy,0.6834601250011474,True
74,real_woman11_sad.JPG,non-ai,female,sad,0.8086574999906588,True
75,AI_sad_man_07.jpg,ai,male,sad,0.7182590420125052,True
76,ai_happy_man_09.jpg,ai,male,happy,0.6341426670260262,False
77,real_woman9_smiling.JPG,non-ai,female,happy,0.8122020000009798,True
78,ai_happy_man_04.jpg,ai,male,happy,0.5923957909981254,True
79,real_woman7_smiling.JPG,non-ai,female,happy,0.7971342919918243,True
