thisRow.t,notes,trial_index,filename,source,gender,emotion,resp_key,rt,correct,missing_file,participant,session,
,,1,real_woman5_smiling.JPG,non-ai,female,happy,right,0.47371437499532476,True,False,vered,001,
,,2,real_man11_sad.JPG,non-ai,male,sad,left,0.46742208302021027,True,False,vered,001,
,,3,AI_sad_man_10.jpg,ai,male,sad,left,0.6201838340202812,True,False,vered,001,
,,4,ai_happy_man_05.jpg,ai,male,happy,left,0.6903150830185041,False,False,vered,001,
,,5,AI_sad_woman_09.jpg,ai,female,sad,left,0.6493810829997528,True,False,vered,001,
,,6,ai_happy_man_02.jpg,ai,male,happy,right,0.4607111669902224,True,False,vered,001,
,,7,AI_sad_woman_05.jpg,ai,female,sad,right,0.5654245829791762,False,False,vered,001,
,,8,AI_happy_woman_06.jpg,ai,female,happy,right,0.5690447079832666,True,False,vered,001,
,,9,real_man6_smiling.JPG,non-ai,male,happy,right,0.6129453750036191,True,False,vered,001,
,,10,AI_happy_woman_08.jpg,ai,female,happy,right,0.49083337499178015,True,False,vered,001,
,,11,AI_sad_man_03.jpg,ai,male,sad,left,0.4301183340139687,True,False,vered,001,
,,12,real_woman6_smiling.JPG,non-ai,female,happy,right,0.5284172500250861,True,False,vered,001,
,,13,AI_happy_woman_04.jpg,ai,female,happy,right,0.5128245840023737,True,False,vered,001,
,,14,ai_happy_man_03.jpg,ai,male,happy,left,0.5128619589959271,False,False,vered,001,
,,15,AI_happy_woman_10.jpg,ai,female,happy,right,0.6500024159904569,True,False,vered,001,
,,16,AI_sad_woman_08.jpg,ai,female,sad,left,0.6216161250195,True,False,vered,001,
,,17,real_man4_smiling.JPG,non-ai,male,happy,right,0.6894899159960914,True,False,vered,001,
,,18,real_man8_smiling.JPG,non-ai,male,happy,right,0.5049212919839192,True,False,vered,001,
,,19,real_man16_sad.JPG,non-ai,male,sad,left,0.5337016660196241,True,False,vered,001,
,,20,AI_sad_man_05.jpg,ai,male,sad,left,0.5651174160011578,True,False,vered,001,
,,21,AI_sad_woman_02.jpg,ai,female,sad,left,0.7782056250143796,True,False,vered,001,
,,22,real_woman15_sad.JPG,non-ai,female,sad,left,0.7419098340033088,True,False,vered,001,
,,23,ai_happy_man_01.jpg,ai,male,happy,right,0.6928767499921378,True,False,vered,001,
,,24,ai_happy_man_10.jpg,ai,male,happy,right,0.6514911249978468,True,False,vered,001,
,,25,AI_sad_woman_07.jpg,ai,female,sad,left,0.9004294580081478,True,False,vered,001,
,,26,real_man1_smiling.JPG,non-ai,male,happy,right,1.2295849170186557,True,False,vered,001,
,,27,real_woman13_sad.JPG,non-ai,female,sad,left,0.9547124580130912,True,False,vered,001,
,,28,real_woman14_sad.JPG,non-ai,female,sad,left,0.6832276250061113,True,False,vered,001,
,,29,AI_sad_woman_06.jpg,ai,female,sad,left,0.5593804999953136,True,False,vered,001,
,,30,real_man13_sad.JPG,non-ai,male,sad,left,0.5833245409885421,True,False,vered,001,
,,31,real_woman16_sad.JPG,non-ai,female,sad,left,0.8185247080109548,True,False,vered,001,
,,32,AI_happy_woman_09.jpg,ai,female,happy,right,0.6273715830175206,True,False,vered,001,
,,33,real_woman2_smiling.JPG,non-ai,female,happy,right,0.5007770000083838,True,False,vered,001,
,,34,real_woman20_sad.JPG,non-ai,female,sad,left,0.670023915998172,True,False,vered,001,
,,35,AI_sad_man_06.jpg,ai,male,sad,left,0.5696119590138551,True,False,vered,001,
,,36,real_man18_sad.JPG,non-ai,male,sad,left,0.5617038749915082,True,False,vered,001,
,,37,AI_happy_woman_02.jpg,ai,female,happy,right,0.6612992910086177,True,False,vered,001,
,,38,real_woman1_smiling.JPG,non-ai,female,happy,right,0.545727791992249,True,False,vered,001,
,,39,real_woman8_smiling.JPG,non-ai,female,happy,right,0.8077262919978239,True,False,vered,001,
,,40,AI_sad_man_01.jpg,ai,male,sad,left,0.7628059159906115,True,False,vered,001,
,,41,AI_sad_woman_01.jpg,ai,female,sad,left,0.709072958008619,True,False,vered,001,
,,42,real_man10_smiling.JPG,non-ai,male,happy,right,0.8422165839874651,True,False,vered,001,
,,43,real_man2_smiling.JPG,non-ai,male,happy,right,0.8268764170061331,True,False,vered,001,
,,44,AI_sad_man_08.jpg,ai,male,sad,left,0.9199515840155073,True,False,vered,001,
,,45,AI_sad_man_02.jpg,ai,male,sad,left,0.6355119580111932,True,False,vered,001,
,,46,real_woman19_sad.JPG,non-ai,female,sad,left,0.6374011250154581,True,False,vered,001,
,,47,AI_happy_woman_07.jpg,ai,female,happy,right,0.5560780839878134,True,False,vered,001,
,,48,real_man3_smiling.JPG,non-ai,male,happy,right,0.619095332978759,True,False,vered,001,
,,49,AI_sad_man_09.jpg,ai,male,sad,left,0.5719546250184067,True,False,vered,001,
,,50,AI_sad_woman_03.jpg,ai,female,sad,left,0.7244158329849597,True,False,vered,001,
,,51,real_man7_smiling.JPG,non-ai,male,happy,right,0.7978132920106873,True,False,vered,001,
,,52,ai_happy_man_07.jpg,ai,male,happy,right,0.4458371660148259,True,False,vered,001,
,,53,real_woman12_sad.JPG,non-ai,female,sad,left,0.8062741670000833,True,False,vered,001,
,,54,real_man12_sad.JPG,non-ai,male,sad,left,0.6984944590076338,True,False,vered,001,
,,55,real_man19_sad.JPG,non-ai,male,sad,left,0.5049409590137657,True,False,vered,001,
,,56,AI_happy_woman_05.jpg,ai,female,happy,right,0.5673730419948697,True,False,vered,001,
,,57,real_woman17_sad.JPG,non-ai,female,sad,left,0.877512792008929,True,False,vered,001,
,,58,real_woman10_smiling.JPG,non-ai,female,happy,right,0.6276349590043537,True,False,vered,001,
,,59,real_woman3_smiling.JPG,non-ai,female,happy,right,0.4850370420026593,True,False,vered,001,
,,60,ai_happy_man_08.jpg,ai,male,happy,right,0.5842395000217948,True,False,vered,001,
,,61,real_man14_sad.JPG,non-ai,male,sad,left,0.5450301250093617,True,False,vered,001,
,,62,ai_happy_man_06.jpg,ai,male,happy,right,0.9627523329982068,True,False,vered,001,
,,63,AI_sad_man_04.jpg,ai,male,sad,left,0.6432863750087563,True,False,vered,001,
,,64,AI_sad_woman_04.jpg,ai,female,sad,left,0.578998250013683,True,False,vered,001,
,,65,real_man17_sad.JPG,non-ai,male,sad,left,0.9663373340154067,True,False,vered,001,
,,66,real_man5_smiling.JPG,non-ai,male,happy,right,0.5844664169999305,True,False,vered,001,
,,67,real_man20_sad.JPG,non-ai,male,sad,left,0.7449297499842942,True,False,vered,001,
,,68,real_woman4_smiling.JPG,non-ai,female,happy,right,0.6023871249926742,True,False,vered,001,
,,69,real_woman18_sad.JPG,non-ai,female,sad,left,0.7564401660056319,True,False,vered,001,
,,70,real_man15_sad.JPG,non-ai,male,sad,left,0.573920333001297,True,False,vered,001,
,,71,AI_happy_woman_03.jpg,ai,female,happy,right,0.6264412080054171,True,False,vered,001,
,,72,real_man9_smiling.JPG,non-ai,male,happy,right,0.515233750018524,True,False,vered,001,
,,73,AI_happy_woman_01.jpg,ai,female,happy,right,0.6834601250011474,True,False,vered,001,
,,74,real_woman11_sad.JPG,non-ai,female,sad,left,0.8086574999906588,True,False,vered,001,
,,75,AI_sad_man_07.jpg,ai,male,sad,left,0.7182590420125052,True,False,vered,001,
,,76,ai_happy_man_09.jpg,ai,male,happy,left,0.6341426670260262,False,False,vered,001,
,,77,real_woman9_smiling.JPG,non-ai,female,happy,right,0.8122020000009798,True,False,vered,001,
,,78,ai_happy_man_04.jpg,ai,male,happy,right,0.5923957909981254,True,False,vered,001,
,,79,real_woman7_smiling.JPG,non-ai,female,happy,right,0.7971342919918243,True,False,vered,001,
